Lp.	f [kHz]	I [mA]
1	1.0	0.063
2	2.0	0.128
3	3.0	0.195
4	4.0	0.268
5	5.0	0.348
6	6.0	0.439
7	7.0	0.545
8	8.0	0.671
9	9.0	0.828
10	10.0	1.033
11	11.0	1.312
12	12.0	1.721
13	13.0	2.384
14	14.0	3.624
15	15.0	6.448
16	16.0	9.944
17	17.0	6.04
18	18.0	3.756
19	19.0	2.703
20	20.0	2.121
21	21.0	1.753
22	22.0	1.501
23	23.0	1.316
24	24.0	1.175
